Cue,Target_side,Stimulus,Stimulus_X,Stimulus_Y,Cue_X,Cue_Y,Cue2_X,Cue2_Y,correctAns,feedback,Practise_loop.thisRepN,Practise_loop.thisTrialN,Practise_loop.thisN,Practise_loop.thisIndex,Main_loop.thisRepN,Main_loop.thisTrialN,Main_loop.thisN,Main_loop.thisIndex,response.keys,response.corr,response.rt,response.started,response.stopped,feedback_image.started,feedback_image.stopped,text.started,text.stopped,participant
double,neutral,Stimuli/neutral_right.png,0,-100,0,-100,0,100,right,Stimuli/feedback_neutral_right.png,0,0,0,18,,,,,right,1,0.4935919,45.4425131,None,46.0008629,None,,,999
double,incogruent,Stimuli/incogruent_left.png,0,100,0,100,0,-100,left,Stimuli/feedback_inc_left.png,0,1,1,23,,,,,left,1,0.5183374,49.2342861,None,49.8008864,None,,,999
double,incogruent,Stimuli/incogruent_right.png,0,100,0,100,0,-100,right,Stimuli/feedback_inc_right.png,0,2,2,22,,,,,right,1,0.4194225,53.1008483,None,53.5676419,None,,,999
none,congruent,Stimuli/congruent_left.png,0,-100,None,None,None,None,left,Stimuli/feedback_con_left.png,0,3,3,15,,,,,left,1,0.683263,56.7648079,None,57.5009852,None,,,999
none,congruent,Stimuli/congruent_left.png,0,-100,None,None,None,None,left,Stimuli/feedback_con_left.png,0,4,4,14,,,,,left,1,0.6591033,60.7654077,None,61.4676735,None,,,999
spatial,neutral,Stimuli/neutral_left.png,0,-100,0,-100,None,None,left,Stimuli/feedback_neutral_left.png,0,5,5,7,,,,,left,1,0.3685356,64.7676427,None,65.2106794,None,,,999
double,congruent,Stimuli/congruent_right.png,0,-100,0,-100,0,100,right,Stimuli/feedback_con_right.png,0,6,6,21,,,,,right,1,0.3870722,68.3010057,None,68.7509344,None,,,999
central,incogruent,Stimuli/incogruent_right.png,0,-100,0,0,None,None,right,Stimuli/feedback_inc_right.png,0,7,7,5,,,,,right,1,0.4478426,72.2722166,None,72.7719969,None,,,999
spatial,incogruent,Stimuli/incogruent_right.png,0,100,0,100,None,None,right,Stimuli/feedback_inc_right.png,0,8,8,10,,,,,right,1,0.5803636,75.9721348,None,76.6051393,None,,,999
double,neutral,Stimuli/neutral_left.png,0,-100,0,-100,0,100,left,Stimuli/feedback_neutral_left.png,0,9,9,19,,,,,left,1,0.5993318,79.8087504,None,80.4717943,None,,,999
none,incogruent,Stimuli/incogruent_left.png,0,100,None,None,None,None,left,Stimuli/feedback_inc_left.png,0,10,10,16,,,,,left,1,0.6656738,83.638436,None,84.3509684,None,,,999
central,congruent,Stimuli/congruent_left.png,0,-100,0,0,None,None,left,Stimuli/feedback_con_left.png,0,11,11,2,,,,,left,1,0.9506189,87.7055612,None,88.7056865,None,,,999
central,incogruent,Stimuli/incogruent_left.png,0,100,0,0,None,None,left,Stimuli/feedback_inc_left.png,0,12,12,4,,,,,left,1,0.4930422,92.1388834,None,92.6723924,None,,,999
none,neutral,Stimuli/neutral_right.png,0,100,None,None,None,None,right,Stimuli/feedback_neutral_right.png,0,13,13,13,,,,,right,1,0.4382933,95.9055338,None,96.4056108,None,,,999
spatial,neutral,Stimuli/neutral_right.png,0,-100,0,-100,None,None,right,Stimuli/feedback_neutral_right.png,0,14,14,6,,,,,right,1,0.4543777,99.8418499,None,100.3388489,None,,,999
none,neutral,Stimuli/neutral_right.png,0,100,None,None,None,None,right,Stimuli/feedback_neutral_right.png,0,15,15,12,,,,,right,1,0.5148738,103.605442,None,104.1719215,None,,,999
spatial,congruent,Stimuli/congruent_right.png,0,-100,0,-100,None,None,right,Stimuli/feedback_con_right.png,0,16,16,9,,,,,right,1,0.3428072,107.5052457,None,107.9175973,None,,,999
central,neutral,Stimuli/neutral_right.png,0,100,0,0,None,None,right,Stimuli/feedback_neutral_right.png,0,17,17,0,,,,,right,1,0.4709176,111.3136111,None,111.8440789,None,,,999
central,neutral,Stimuli/neutral_right.png,0,100,0,0,None,None,right,Stimuli/feedback_neutral_right.png,0,18,18,1,,,,,right,1,0.401073,115.3108713,None,115.7772647,None,,,999
central,congruent,Stimuli/congruent_left.png,0,-100,0,0,None,None,left,Stimuli/feedback_con_left.png,0,19,19,3,,,,,left,1,0.5397705,118.8442163,None,119.4343216,None,,,999
spatial,congruent,Stimuli/congruent_left.png,0,100,0,100,None,None,left,Stimuli/feedback_con_left.png,0,20,20,8,,,,,left,1,0.5166145,122.6514993,None,123.2184284,None,,,999
none,incogruent,Stimuli/incogruent_right.png,0,100,None,None,None,None,right,Stimuli/feedback_inc_right.png,0,21,21,17,,,,,right,1,0.4451192,126.4515474,None,126.9517178,None,,,999
spatial,incogruent,Stimuli/incogruent_right.png,0,100,0,100,None,None,right,Stimuli/feedback_inc_right.png,0,22,22,11,,,,,right,1,0.3857734,130.2224284,None,130.6517068,None,,,999
double,congruent,Stimuli/congruent_left.png,0,100,0,100,0,-100,left,Stimuli/feedback_con_left.png,0,23,23,20,,,,,left,1,0.3788147,133.6850302,None,134.1183417,None,,,999
spatial,congruent,Stimuli/congruent_right.png,0,100,0,100,None,None,right,Stimuli/feedback_con_right.png,,,,,0,0,0,55,right,1,0.5322134,147.7167872,None,148.2844272,None,None,None,999
central,incogruent,Stimuli/incogruent_left.png,0,-100,0,0,None,None,left,Stimuli/feedback_inc_left.png,,,,,0,1,1,28,left,1,0.6276345,151.7165176,None,152.3843989,None,None,None,999
double,incogruent,Stimuli/incogruent_right.png,0,-100,0,-100,0,100,right,Stimuli/feedback_inc_right.png,,,,,0,2,2,141,right,1,0.4528151,155.6830521,None,156.1844002,None,None,None,999
double,congruent,Stimuli/congruent_right.png,0,-100,0,-100,0,100,right,Stimuli/feedback_con_right.png,,,,,0,3,3,130,right,1,0.494887,159.5208187,None,160.0676387,None,None,None,999
double,congruent,Stimuli/congruent_left.png,0,100,0,100,0,-100,left,Stimuli/feedback_con_left.png,,,,,0,4,4,120,left,1,0.5690647,163.5188623,None,164.1677261,None,None,None,999
central,incogruent,Stimuli/incogruent_right.png,0,-100,0,0,None,None,right,Stimuli/feedback_inc_right.png,,,,,0,5,5,35,right,1,0.6200138,167.5555997,None,168.2216543,None,None,None,999
none,incogruent,Stimuli/incogruent_right.png,0,100,None,None,None,None,right,Stimuli/feedback_inc_right.png,,,,,0,6,6,102,right,1,0.8938003,171.5222106,None,172.454986,None,None,None,999
spatial,congruent,Stimuli/congruent_left.png,0,-100,0,-100,None,None,left,Stimuli/feedback_con_left.png,,,,,0,7,7,51,left,1,0.8659589,175.6217743,None,176.5218765,None,None,None,999
spatial,neutral,Stimuli/neutral_right.png,0,100,0,100,None,None,right,Stimuli/feedback_neutral_right.png,,,,,0,8,8,37,right,1,0.3477795,179.6599411,None,180.0549056,None,None,None,999
central,incogruent,Stimuli/incogruent_left.png,0,100,0,0,None,None,left,Stimuli/feedback_inc_left.png,,,,,0,9,9,25,left,1,1.1675009,183.401092,None,184.6344363,None,None,None,999
none,congruent,Stimuli/congruent_left.png,0,-100,None,None,None,None,left,Stimuli/feedback_con_left.png,,,,,0,10,10,89,left,1,0.7308221,187.789035,None,188.5549735,None,None,None,999
central,congruent,Stimuli/congruent_left.png,0,-100,0,0,None,None,left,Stimuli/feedback_con_left.png,,,,,0,11,11,17,left,1,0.4999401,191.7881226,None,192.3217744,None,None,None,999
central,neutral,Stimuli/neutral_left.png,0,100,0,0,None,None,left,Stimuli/feedback_neutral_left.png,,,,,0,12,12,8,left,1,0.5524983,195.4556318,None,196.0549094,None,None,None,999
none,incogruent,Stimuli/incogruent_right.png,0,100,None,None,None,None,right,Stimuli/feedback_inc_right.png,,,,,0,13,13,103,right,1,0.6755241,199.1883568,None,199.9344761,None,None,None,999
spatial,incogruent,Stimuli/incogruent_left.png,0,-100,0,-100,None,None,left,Stimuli/feedback_inc_left.png,,,,,0,14,14,63,left,1,0.7637213,203.1240888,None,203.9220011,None,None,None,999
double,congruent,Stimuli/congruent_right.png,0,100,0,100,0,-100,right,Stimuli/feedback_con_right.png,,,,,0,15,15,128,right,1,0.4993088,207.1885606,None,207.7219572,None,None,None,999
spatial,neutral,Stimuli/neutral_right.png,0,100,0,100,None,None,right,Stimuli/feedback_neutral_right.png,,,,,0,16,16,38,right,1,0.3824539,210.921853,None,211.355308,None,None,None,999
none,congruent,Stimuli/congruent_left.png,0,100,None,None,None,None,left,Stimuli/feedback_con_left.png,,,,,0,17,17,85,left,1,0.5520378,214.6883033,None,215.3010718,None,None,None,999
double,congruent,Stimuli/congruent_right.png,0,-100,0,-100,0,100,right,Stimuli/feedback_con_right.png,,,,,0,18,18,131,right,1,0.3392823,218.4931973,None,218.8928166,None,None,None,999
none,incogruent,Stimuli/incogruent_left.png,0,100,None,None,None,None,left,Stimuli/feedback_inc_left.png,,,,,0,19,19,96,left,1,0.4700752,222.2265782,None,222.7597417,None,None,None,999
none,incogruent,Stimuli/incogruent_left.png,0,100,None,None,None,None,left,Stimuli/feedback_inc_left.png,,,,,0,20,20,97,left,1,0.6228941,225.9932019,None,226.6594381,None,None,None,999
spatial,neutral,Stimuli/neutral_left.png,0,-100,0,-100,None,None,left,Stimuli/feedback_neutral_left.png,,,,,0,21,21,46,left,1,0.4525784,229.8597316,None,230.3678494,None,None,None,999
central,neutral,Stimuli/neutral_left.png,0,100,0,0,None,None,left,Stimuli/feedback_neutral_left.png,,,,,0,22,22,6,left,1,0.454291,233.6260031,None,234.1258844,None,None,None,999
double,neutral,Stimuli/neutral_right.png,0,100,0,100,0,-100,right,Stimuli/feedback_neutral_right.png,,,,,0,23,23,110,right,1,0.716282,237.4597635,None,238.2345057,None,None,None,999
spatial,congruent,Stimuli/congruent_left.png,0,-100,0,-100,None,None,left,Stimuli/feedback_con_left.png,,,,,0,24,24,53,left,1,0.4254958,241.5344649,None,242.0010658,None,None,None,999
spatial,incogruent,Stimuli/incogruent_right.png,0,100,0,100,None,None,right,Stimuli/feedback_inc_right.png,,,,,0,25,25,66,right,1,0.3933617,245.2949505,None,245.734601,None,None,None,999
central,neutral,Stimuli/neutral_right.png,0,100,0,0,None,None,right,Stimuli/feedback_neutral_right.png,,,,,0,26,26,0,right,1,0.4345641,249.0615593,None,249.5678593,None,None,None,999
none,neutral,Stimuli/neutral_right.png,0,-100,None,None,None,None,right,Stimuli/feedback_neutral_right.png,,,,,0,27,27,75,right,1,1.1437467,252.7283877,None,253.9283697,None,None,None,999
central,incogruent,Stimuli/incogruent_right.png,0,100,0,0,None,None,right,Stimuli/feedback_inc_right.png,,,,,0,28,28,32,right,1,0.6056285,257.2345467,None,257.901024,None,None,None,999
spatial,congruent,Stimuli/congruent_left.png,0,100,0,100,None,None,left,Stimuli/feedback_con_left.png,,,,,0,29,29,48,left,1,0.8069329,261.1292341,None,262.0011918,None,None,None,999
spatial,neutral,Stimuli/neutral_left.png,0,-100,0,-100,None,None,left,Stimuli/feedback_neutral_left.png,,,,,0,30,30,47,left,1,0.5972535,265.1628215,None,265.8012504,None,None,None,999
spatial,congruent,Stimuli/congruent_right.png,0,-100,0,-100,None,None,right,Stimuli/feedback_con_right.png,,,,,0,31,31,59,right,1,0.4100389,268.9345433,None,269.4178303,None,None,None,999
none,neutral,Stimuli/neutral_left.png,0,-100,None,None,None,None,left,Stimuli/feedback_neutral_left.png,,,,,0,32,32,81,left,1,0.3823397,272.6735565,None,273.1064899,None,None,None,999
central,incogruent,Stimuli/incogruent_right.png,0,-100,0,0,None,None,right,Stimuli/feedback_inc_right.png,,,,,0,33,33,34,right,1,0.4732567,276.439293,None,276.9845091,None,None,None,999
spatial,incogruent,Stimuli/incogruent_right.png,0,100,0,100,None,None,right,Stimuli/feedback_inc_right.png,,,,,0,34,34,68,right,1,0.4103486,280.3415809,None,280.8080754,None,None,None,999
spatial,congruent,Stimuli/congruent_right.png,0,-100,0,-100,None,None,right,Stimuli/feedback_con_right.png,,,,,0,35,35,57,right,1,0.399719,284.0081619,None,284.4412674,None,None,None,999
central,neutral,Stimuli/neutral_left.png,0,100,0,0,None,None,left,Stimuli/feedback_neutral_left.png,,,,,0,36,36,7,left,1,0.3838299,287.8081555,None,288.2413365,None,290.2414689,None,999
none,neutral,Stimuli/neutral_right.png,0,100,None,None,None,None,right,Stimuli/feedback_neutral_right.png,,,,,0,37,37,72,right,1,0.6595974,303.508274,None,304.2077303,None,None,None,999
double,neutral,Stimuli/neutral_left.png,0,-100,0,-100,0,100,left,Stimuli/feedback_neutral_left.png,,,,,0,38,38,117,left,1,0.4425645,307.3412583,None,307.8412919,None,None,None,999
double,incogruent,Stimuli/incogruent_left.png,0,-100,0,-100,0,100,left,Stimuli/feedback_inc_left.png,,,,,0,39,39,136,left,1,0.5600323,311.0081274,None,311.6179717,None,None,None,999
spatial,congruent,Stimuli/congruent_left.png,0,-100,0,-100,None,None,left,Stimuli/feedback_con_left.png,,,,,0,40,40,52,left,1,0.3577324,315.0419906,None,315.4420389,None,None,None,999
spatial,incogruent,Stimuli/incogruent_left.png,0,100,0,100,None,None,left,Stimuli/feedback_inc_left.png,,,,,0,41,41,62,left,1,0.4518655,318.6754597,None,319.1752628,None,None,None,999
double,neutral,Stimuli/neutral_right.png,0,100,0,100,0,-100,right,Stimuli/feedback_neutral_right.png,,,,,0,42,42,108,right,1,0.4221281,322.2419095,None,322.7081487,None,None,None,999
none,congruent,Stimuli/congruent_right.png,0,-100,None,None,None,None,right,Stimuli/feedback_con_right.png,,,,,0,43,43,93,right,1,0.7604117,326.1752181,None,326.9846454,None,None,None,999
none,incogruent,Stimuli/incogruent_left.png,0,-100,None,None,None,None,left,Stimuli/feedback_inc_left.png,,,,,0,44,44,99,left,1,0.5877369,330.1800654,None,330.8086772,None,None,None,999
double,incogruent,Stimuli/incogruent_right.png,0,-100,0,-100,0,100,right,Stimuli/feedback_inc_right.png,,,,,0,45,45,143,right,1,0.5551355,334.3088609,None,334.9086499,None,None,None,999
central,incogruent,Stimuli/incogruent_left.png,0,-100,0,0,None,None,left,Stimuli/feedback_inc_left.png,,,,,0,46,46,27,left,1,0.7661284,338.0421193,None,338.841661,None,None,None,999
spatial,incogruent,Stimuli/incogruent_left.png,0,100,0,100,None,None,left,Stimuli/feedback_inc_left.png,,,,,0,47,47,60,right,0,0.1537922,341.9421196,None,342.1513536,None,None,None,999
double,incogruent,Stimuli/incogruent_right.png,0,-100,0,-100,0,100,right,Stimuli/feedback_inc_right.png,,,,,0,48,48,142,right,1,0.8616884,345.5467042,None,346.451476,None,None,None,999
double,incogruent,Stimuli/incogruent_left.png,0,-100,0,-100,0,100,left,Stimuli/feedback_inc_left.png,,,,,0,49,49,137,left,1,0.6845022,349.7802784,None,350.518045,None,None,None,999
spatial,neutral,Stimuli/neutral_left.png,0,-100,0,-100,None,None,left,Stimuli/feedback_neutral_left.png,,,,,0,50,50,45,right,0,0.2625352,353.9135436,None,354.2179788,None,None,None,999
central,neutral,Stimuli/neutral_right.png,0,-100,0,0,None,None,right,Stimuli/feedback_neutral_right.png,,,,,0,51,51,5,right,1,0.4753765,357.4132531,None,357.9464494,None,None,None,999
central,congruent,Stimuli/congruent_right.png,0,-100,0,0,None,None,right,Stimuli/feedback_con_right.png,,,,,0,52,52,22,right,1,0.486381,361.2179493,None,361.7517613,None,None,None,999
double,congruent,Stimuli/congruent_left.png,0,100,0,100,0,-100,left,Stimuli/feedback_con_left.png,,,,,0,53,53,122,left,1,0.7873464,365.148379,None,365.9847535,None,None,None,999
central,congruent,Stimuli/congruent_right.png,0,100,0,0,None,None,right,Stimuli/feedback_con_right.png,,,,,0,54,54,18,right,1,0.484637,369.1149326,None,369.6515518,None,None,None,999
none,congruent,Stimuli/congruent_right.png,0,-100,None,None,None,None,right,Stimuli/feedback_con_right.png,,,,,0,55,55,95,right,1,1.119392,372.7846078,None,373.9513764,None,None,None,999
double,congruent,Stimuli/congruent_left.png,0,-100,0,-100,0,100,left,Stimuli/feedback_con_left.png,,,,,0,56,56,124,left,1,0.4830863,377.1811883,None,377.7180634,None,None,None,999
none,congruent,Stimuli/congruent_left.png,0,100,None,None,None,None,left,Stimuli/feedback_con_left.png,,,,,0,57,57,86,left,1,0.508192,381.1479019,None,381.7179792,None,None,None,999
spatial,incogruent,Stimuli/incogruent_right.png,0,100,0,100,None,None,right,Stimuli/feedback_inc_right.png,,,,,0,58,58,67,right,1,0.3688842,385.0147966,None,385.4513657,None,None,None,999
double,congruent,Stimuli/congruent_right.png,0,100,0,100,0,-100,right,Stimuli/feedback_con_right.png,,,,,0,59,59,126,right,1,0.5212432,389.0143342,None,389.5847493,None,None,None,999
none,congruent,Stimuli/congruent_right.png,0,100,None,None,None,None,right,Stimuli/feedback_con_right.png,,,,,0,60,60,92,right,1,0.4402082,393.047757,None,393.5514768,None,None,None,999
central,congruent,Stimuli/congruent_right.png,0,-100,0,0,None,None,right,Stimuli/feedback_con_right.png,,,,,0,61,61,23,right,1,0.7580054,396.8176655,None,397.6181245,None,None,None,999
spatial,incogruent,Stimuli/incogruent_right.png,0,-100,0,-100,None,None,right,Stimuli/feedback_inc_right.png,,,,,0,62,62,69,right,1,0.9136362,400.8143393,None,401.7848067,None,None,None,999
spatial,incogruent,Stimuli/incogruent_left.png,0,-100,0,-100,None,None,left,Stimuli/feedback_inc_left.png,,,,,0,63,63,64,left,1,0.4536767,405.5145595,None,406.0181252,None,None,None,999
double,neutral,Stimuli/neutral_left.png,0,100,0,100,0,-100,left,Stimuli/feedback_neutral_left.png,,,,,0,64,64,115,left,1,0.4854087,409.3145181,None,409.8514184,None,None,None,999
double,neutral,Stimuli/neutral_left.png,0,-100,0,-100,0,100,left,Stimuli/feedback_neutral_left.png,,,,,0,65,65,119,left,1,0.4270261,413.3808432,None,413.8514392,None,None,None,999
central,incogruent,Stimuli/incogruent_right.png,0,100,0,0,None,None,right,Stimuli/feedback_inc_right.png,,,,,0,66,66,31,right,1,0.5071099,417.284742,None,417.8514122,None,None,None,999
double,congruent,Stimuli/congruent_right.png,0,100,0,100,0,-100,right,Stimuli/feedback_con_right.png,,,,,0,67,67,127,right,1,0.4927735,421.3152064,None,421.8514833,None,None,None,999
central,incogruent,Stimuli/incogruent_right.png,0,-100,0,0,None,None,right,Stimuli/feedback_inc_right.png,,,,,0,68,68,33,right,1,0.5678085,425.4155212,None,426.0515167,None,None,None,999
central,neutral,Stimuli/neutral_right.png,0,-100,0,0,None,None,right,Stimuli/feedback_neutral_right.png,,,,,0,69,69,4,right,1,0.7435093,429.448487,None,430.2515116,None,None,None,999
double,neutral,Stimuli/neutral_right.png,0,-100,0,-100,0,100,right,Stimuli/feedback_neutral_right.png,,,,,0,70,70,111,right,1,0.7085123,433.5151241,None,434.2847569,None,None,None,999
spatial,congruent,Stimuli/congruent_left.png,0,100,0,100,None,None,left,Stimuli/feedback_con_left.png,,,,,0,71,71,50,left,1,0.5165804,437.4514773,None,438.0180832,None,None,None,999
double,neutral,Stimuli/neutral_left.png,0,-100,0,-100,0,100,left,Stimuli/feedback_neutral_left.png,,,,,0,72,72,118,left,1,0.6051313,441.3866139,None,442.0515565,None,444.082437,None,999
double,congruent,Stimuli/congruent_left.png,0,-100,0,-100,0,100,left,Stimuli/feedback_con_left.png,,,,,0,73,73,125,left,1,0.9714942,458.6848472,None,459.7181492,None,None,None,999
none,congruent,Stimuli/congruent_left.png,0,100,None,None,None,None,left,Stimuli/feedback_con_left.png,,,,,0,74,74,84,left,1,0.5436708,462.8165547,None,463.4182182,None,None,None,999
none,neutral,Stimuli/neutral_left.png,0,-100,None,None,None,None,left,Stimuli/feedback_neutral_left.png,,,,,0,75,75,83,left,1,0.7697319,466.5499247,None,467.3848278,None,None,None,999
double,congruent,Stimuli/congruent_left.png,0,100,0,100,0,-100,left,Stimuli/feedback_con_left.png,,,,,0,76,76,121,left,1,0.7267585,470.7848758,None,471.5514914,None,None,None,999
central,neutral,Stimuli/neutral_right.png,0,-100,0,0,None,None,right,Stimuli/feedback_neutral_right.png,,,,,0,77,77,3,right,1,0.4648696,474.9191623,None,475.4514416,None,None,None,999
central,congruent,Stimuli/congruent_left.png,0,100,0,0,None,None,left,Stimuli/feedback_con_left.png,,,,,0,78,78,12,left,1,0.4641663,478.9513831,None,479.45149,None,None,None,999
none,neutral,Stimuli/neutral_right.png,0,-100,None,None,None,None,right,Stimuli/feedback_neutral_right.png,,,,,0,79,79,76,right,1,1.2058471,482.6502361,None,483.9182402,None,None,None,999
spatial,incogruent,Stimuli/incogruent_left.png,0,100,0,100,None,None,left,Stimuli/feedback_inc_left.png,,,,,0,80,80,61,left,1,0.4724206,487.1516084,None,487.6847901,None,None,None,999
central,neutral,Stimuli/neutral_left.png,0,-100,0,0,None,None,left,Stimuli/feedback_neutral_left.png,,,,,0,81,81,9,left,1,0.4105371,491.2845325,None,491.7514699,None,None,None,999
none,congruent,Stimuli/congruent_right.png,0,100,None,None,None,None,right,Stimuli/feedback_con_right.png,,,,,0,82,82,91,right,1,1.0478704,494.9515969,None,496.0682291,None,None,None,999
central,congruent,Stimuli/congruent_left.png,0,100,0,0,None,None,left,Stimuli/feedback_con_left.png,,,,,0,83,83,13,left,1,0.4611773,499.354446,None,499.8515858,None,None,None,999
spatial,incogruent,Stimuli/incogruent_right.png,0,-100,0,-100,None,None,right,Stimuli/feedback_inc_right.png,,,,,0,84,84,71,right,1,0.4619659,503.0179382,None,503.5183109,None,None,None,999
double,incogruent,Stimuli/incogruent_right.png,0,100,0,100,0,-100,right,Stimuli/feedback_inc_right.png,,,,,0,85,85,140,right,1,0.7858193,506.9179137,None,507.7516255,None,None,None,999
none,congruent,Stimuli/congruent_left.png,0,-100,None,None,None,None,left,Stimuli/feedback_con_left.png,,,,,0,86,86,87,left,1,0.7998821,510.9515907,None,511.7848685,None,None,None,999
spatial,incogruent,Stimuli/incogruent_left.png,0,-100,0,-100,None,None,left,Stimuli/feedback_inc_left.png,,,,,0,87,87,65,left,1,0.3849327,514.9511543,None,515.3850263,None,None,None,999
double,neutral,Stimuli/neutral_left.png,0,100,0,100,0,-100,left,Stimuli/feedback_neutral_left.png,,,,,0,88,88,114,left,1,0.5274853,518.7844537,None,519.368188,None,None,None,999
spatial,congruent,Stimuli/congruent_left.png,0,100,0,100,None,None,left,Stimuli/feedback_con_left.png,,,,,0,89,89,49,left,1,0.3493788,522.6181004,None,523.034941,None,None,None,999
none,incogruent,Stimuli/incogruent_right.png,0,-100,None,None,None,None,right,Stimuli/feedback_inc_right.png,,,,,0,90,90,107,right,1,0.7274896,526.3523836,None,527.118838,None,None,None,999
double,neutral,Stimuli/neutral_left.png,0,100,0,100,0,-100,left,Stimuli/feedback_neutral_left.png,,,,,0,91,91,116,left,1,0.7596569,530.456188,None,531.2523208,None,None,None,999
central,congruent,Stimuli/congruent_right.png,0,100,0,0,None,None,right,Stimuli/feedback_con_right.png,,,,,0,92,92,19,right,1,0.4431236,534.4850463,None,535.0015856,None,None,None,999
none,neutral,Stimuli/neutral_right.png,0,100,None,None,None,None,right,Stimuli/feedback_neutral_right.png,,,,,0,93,93,73,right,1,0.5656397,538.4899885,None,539.0898108,None,None,None,999
spatial,neutral,Stimuli/neutral_right.png,0,-100,0,-100,None,None,right,Stimuli/feedback_neutral_right.png,,,,,0,94,94,39,right,1,0.7963903,542.5232198,None,543.3562857,None,None,None,999
double,incogruent,Stimuli/incogruent_left.png,0,-100,0,-100,0,100,left,Stimuli/feedback_inc_left.png,,,,,0,95,95,135,left,1,0.6596516,546.7562907,None,547.4683338,None,None,None,999
spatial,congruent,Stimuli/congruent_right.png,0,-100,0,-100,None,None,right,Stimuli/feedback_con_right.png,,,,,0,96,96,58,right,1,0.7253343,550.5944289,None,551.3560201,None,None,None,999
spatial,neutral,Stimuli/neutral_left.png,0,100,0,100,None,None,left,Stimuli/feedback_neutral_left.png,,,,,0,97,97,44,left,1,0.6711716,554.6559294,None,555.3894432,None,None,None,999
none,neutral,Stimuli/neutral_left.png,0,100,None,None,None,None,left,Stimuli/feedback_neutral_left.png,,,,,0,98,98,78,left,1,0.6364493,558.7226589,None,559.4225324,None,None,None,999
double,congruent,Stimuli/congruent_right.png,0,-100,0,-100,0,100,right,Stimuli/feedback_con_right.png,,,,,0,99,99,129,right,1,0.8647766,562.622713,None,563.5349407,None,None,None,999
double,incogruent,Stimuli/incogruent_left.png,0,100,0,100,0,-100,left,Stimuli/feedback_inc_left.png,,,,,0,100,100,132,left,1,0.8627913,566.7929535,None,567.6927639,None,None,None,999
none,incogruent,Stimuli/incogruent_left.png,0,-100,None,None,None,None,left,Stimuli/feedback_inc_left.png,,,,,0,101,101,100,left,1,0.9293509,570.9262531,None,571.8927391,None,None,None,999
central,neutral,Stimuli/neutral_right.png,0,100,0,0,None,None,right,Stimuli/feedback_neutral_right.png,,,,,0,102,102,1,right,1,0.8111515,575.0927467,None,575.959136,None,None,None,999
central,incogruent,Stimuli/incogruent_right.png,0,100,0,0,None,None,right,Stimuli/feedback_inc_right.png,,,,,0,103,103,30,right,1,0.8971016,579.1350303,None,580.1016441,None,None,None,999
none,congruent,Stimuli/congruent_right.png,0,100,None,None,None,None,right,Stimuli/feedback_con_right.png,,,,,0,104,104,90,right,1,1.137237,583.4303351,None,584.6262115,None,None,None,999
central,incogruent,Stimuli/incogruent_left.png,0,-100,0,0,None,None,left,Stimuli/feedback_inc_left.png,,,,,0,105,105,29,left,1,0.9543191,587.8934911,None,588.8931064,None,None,None,999
none,congruent,Stimuli/congruent_left.png,0,-100,None,None,None,None,left,Stimuli/feedback_con_left.png,,,,,0,106,106,88,left,1,1.0344362,591.9975817,None,593.0930429,None,None,None,999
central,neutral,Stimuli/neutral_right.png,0,100,0,0,None,None,right,Stimuli/feedback_neutral_right.png,,,,,0,107,107,2,right,1,1.0283801,596.2597423,None,597.3259454,None,None,None,999
double,congruent,Stimuli/congruent_left.png,0,-100,0,-100,0,100,left,Stimuli/feedback_con_left.png,,,,,0,108,108,123,left,1,1.0212998,600.6022501,None,601.6683395,None,603.69834,None,999
spatial,incogruent,Stimuli/incogruent_right.png,0,-100,0,-100,None,None,right,Stimuli/feedback_inc_right.png,,,,,0,109,109,70,right,1,0.5445758,617.1031355,None,617.7017626,None,None,None,999
central,neutral,Stimuli/neutral_left.png,0,-100,0,0,None,None,left,Stimuli/feedback_neutral_left.png,,,,,0,110,110,10,left,1,0.9462825,621.1650672,None,622.1684509,None,None,None,999
central,congruent,Stimuli/congruent_left.png,0,-100,0,0,None,None,left,Stimuli/feedback_con_left.png,,,,,0,111,111,15,left,1,0.9124107,625.5350442,None,626.5017315,None,None,None,999
spatial,neutral,Stimuli/neutral_right.png,0,-100,0,-100,None,None,right,Stimuli/feedback_neutral_right.png,,,,,0,112,112,41,right,1,0.5647173,629.8995065,None,630.5017747,None,None,None,999
double,incogruent,Stimuli/incogruent_left.png,0,100,0,100,0,-100,left,Stimuli/feedback_inc_left.png,,,,,0,113,113,133,left,1,0.4841589,633.8683713,None,634.4017415,None,None,None,999
none,neutral,Stimuli/neutral_right.png,0,100,None,None,None,None,right,Stimuli/feedback_neutral_right.png,,,,,0,114,114,74,right,1,0.6117769,637.667823,None,638.3351775,None,None,None,999
central,congruent,Stimuli/congruent_right.png,0,-100,0,0,None,None,right,Stimuli/feedback_con_right.png,,,,,0,115,115,21,right,1,0.4476553,641.5684375,None,642.0684287,None,None,None,999
double,incogruent,Stimuli/incogruent_right.png,0,100,0,100,0,-100,right,Stimuli/feedback_inc_right.png,,,,,0,116,116,138,left,0,0.4578438,645.3335579,None,645.8352318,None,None,None,999
none,incogruent,Stimuli/incogruent_right.png,0,-100,None,None,None,None,right,Stimuli/feedback_inc_right.png,,,,,0,117,117,106,right,1,0.4892135,649.1667234,None,649.7018672,None,None,None,999
central,congruent,Stimuli/congruent_left.png,0,-100,0,0,None,None,left,Stimuli/feedback_con_left.png,,,,,0,118,118,16,left,1,0.5871361,652.9002715,None,653.535185,None,None,None,999
none,neutral,Stimuli/neutral_left.png,0,100,None,None,None,None,left,Stimuli/feedback_neutral_left.png,,,,,0,119,119,79,left,1,0.5792147,656.8047396,None,657.4350892,None,None,None,999
spatial,neutral,Stimuli/neutral_right.png,0,100,0,100,None,None,right,Stimuli/feedback_neutral_right.png,,,,,0,120,120,36,right,1,1.0663869,660.7332774,None,661.8351145,None,None,None,999
central,neutral,Stimuli/neutral_left.png,0,-100,0,0,None,None,left,Stimuli/feedback_neutral_left.png,,,,,0,121,121,11,left,1,0.5288228,665.3029518,None,665.8684316,None,None,None,999
central,congruent,Stimuli/congruent_right.png,0,100,0,0,None,None,right,Stimuli/feedback_con_right.png,,,,,0,122,122,20,right,1,0.3897738,669.2016885,None,669.6351018,None,None,None,999
spatial,neutral,Stimuli/neutral_left.png,0,100,0,100,None,None,left,Stimuli/feedback_neutral_left.png,,,,,0,123,123,42,left,1,0.3809134,673.0664988,None,673.5019403,None,None,None,999
double,neutral,Stimuli/neutral_right.png,0,-100,0,-100,0,100,right,Stimuli/feedback_neutral_right.png,,,,,0,124,124,112,right,1,0.4288338,676.6664625,None,677.1352147,None,None,None,999
none,neutral,Stimuli/neutral_left.png,0,-100,None,None,None,None,left,Stimuli/feedback_neutral_left.png,,,,,0,125,125,82,left,1,0.7166535,680.2667481,None,681.0352127,None,None,None,999
double,neutral,Stimuli/neutral_right.png,0,100,0,100,0,-100,right,Stimuli/feedback_neutral_right.png,,,,,0,126,126,109,right,1,0.5060776,684.5096362,None,685.0685556,None,None,None,999
none,incogruent,Stimuli/incogruent_right.png,0,100,None,None,None,None,right,Stimuli/feedback_inc_right.png,,,,,0,127,127,104,right,1,0.6271618,688.2684234,None,688.935121,None,None,None,999
spatial,congruent,Stimuli/congruent_right.png,0,100,0,100,None,None,right,Stimuli/feedback_con_right.png,,,,,0,128,128,54,right,1,0.4604262,692.235234,None,692.7351759,None,None,None,999
spatial,neutral,Stimuli/neutral_left.png,0,100,0,100,None,None,left,Stimuli/feedback_neutral_left.png,,,,,0,129,129,43,left,1,0.3586816,695.8009974,None,696.2017822,None,None,None,999
spatial,congruent,Stimuli/congruent_right.png,0,100,0,100,None,None,right,Stimuli/feedback_con_right.png,,,,,0,130,130,56,right,1,0.4821223,699.7018536,None,700.251848,None,None,None,999
none,congruent,Stimuli/congruent_right.png,0,-100,None,None,None,None,right,Stimuli/feedback_con_right.png,,,,,0,131,131,94,right,1,0.8029718,703.4045047,None,704.2713293,None,None,None,999
central,incogruent,Stimuli/incogruent_left.png,0,100,0,0,None,None,left,Stimuli/feedback_inc_left.png,,,,,0,132,132,24,left,1,0.6188791,707.8043589,None,708.4707941,None,None,None,999
none,incogruent,Stimuli/incogruent_right.png,0,-100,None,None,None,None,right,Stimuli/feedback_inc_right.png,,,,,0,133,133,105,right,1,1.1230773,711.8047202,None,712.9712145,None,None,None,999
none,incogruent,Stimuli/incogruent_left.png,0,100,None,None,None,None,left,Stimuli/feedback_inc_left.png,,,,,0,134,134,98,left,1,0.6505967,716.0526825,None,716.7375295,None,None,None,999
double,incogruent,Stimuli/incogruent_left.png,0,100,0,100,0,-100,left,Stimuli/feedback_inc_left.png,,,,,0,135,135,134,left,1,0.6176891,720.2379368,None,720.9042826,None,None,None,999
double,incogruent,Stimuli/incogruent_right.png,0,100,0,100,0,-100,right,Stimuli/feedback_inc_right.png,,,,,0,136,136,139,right,1,0.3735688,724.3376622,None,724.7710597,None,None,None,999
none,neutral,Stimuli/neutral_left.png,0,100,None,None,None,None,left,Stimuli/feedback_neutral_left.png,,,,,0,137,137,80,left,1,0.5632948,728.2042172,None,728.803916,None,None,None,999
none,incogruent,Stimuli/incogruent_left.png,0,-100,None,None,None,None,left,Stimuli/feedback_inc_left.png,,,,,0,138,138,101,left,1,0.8220214,732.3375674,None,733.2185813,None,None,None,999
central,incogruent,Stimuli/incogruent_left.png,0,100,0,0,None,None,left,Stimuli/feedback_inc_left.png,,,,,0,139,139,26,right,0,0.4764722,736.3796419,None,736.9084771,None,None,None,999
double,neutral,Stimuli/neutral_right.png,0,-100,0,-100,0,100,right,Stimuli/feedback_neutral_right.png,,,,,0,140,140,113,right,1,0.4056426,740.2419566,None,740.7088024,None,None,None,999
spatial,neutral,Stimuli/neutral_right.png,0,-100,0,-100,None,None,right,Stimuli/feedback_neutral_right.png,,,,,0,141,141,40,right,1,0.3652603,744.0418856,None,744.4415189,None,None,None,999
central,congruent,Stimuli/congruent_left.png,0,100,0,0,None,None,left,Stimuli/feedback_con_left.png,,,,,0,142,142,14,left,1,0.5593287,747.6080515,None,748.2186193,None,None,None,999
none,neutral,Stimuli/neutral_right.png,0,-100,None,None,None,None,right,Stimuli/feedback_neutral_right.png,,,,,0,143,143,77,right,1,0.7682668,751.575161,None,752.4084876,None,None,None,999
